# lambda (micron)    fractional filter transmission phi(lambda)
1.147000	0.00288000
1.147200	0.00310000
1.147400	0.00310000
1.147600	0.00320000
1.147800	0.00328000
1.148000	0.00331000
1.148200	0.00342000
1.148400	0.00356000
1.148600	0.00362000
1.148800	0.00378000
1.149000	0.00392000
1.149200	0.00398000
1.149400	0.00409000
1.149600	0.00420000
1.149800	0.00438000
1.150000	0.00458000
1.150200	0.00478000
1.150400	0.00485000
1.150600	0.00505000
1.150800	0.00531000
1.151000	0.00546000
1.151200	0.00562000
1.151400	0.00586000
1.151600	0.00609000
1.151800	0.00627000
1.152000	0.00650000
1.152200	0.00676000
1.152400	0.00710000
1.152600	0.00734000
1.152800	0.00757000
1.153000	0.00775000
1.153200	0.00801000
1.153400	0.00830000
1.153600	0.00865000
1.153800	0.00905000
1.154000	0.00937000
1.154200	0.00986000
1.154400	0.01028000
1.154600	0.01065000
1.154800	0.01099000
1.155000	0.01152000
1.155200	0.01196000
1.155400	0.01244000
1.155600	0.01288000
1.155800	0.01331000
1.156000	0.01395000
1.156200	0.01457000
1.156400	0.01520000
1.156600	0.01587000
1.156800	0.01646000
1.157000	0.01704000
1.157200	0.01767000
1.157400	0.01834000
1.157600	0.01895000
1.157800	0.01971000
1.158000	0.02051000
1.158200	0.02121000
1.158400	0.02196000
1.158600	0.02274000
1.158800	0.02350000
1.159000	0.02441000
1.159200	0.02527000
1.159400	0.02608000
1.159600	0.02696000
1.159800	0.02792000
1.160000	0.02879000
1.160200	0.02980000
1.160400	0.03076000
1.160600	0.03172000
1.160800	0.03284000
1.161000	0.03392000
1.161200	0.03503000
1.161400	0.03616000
1.161600	0.03749000
1.161800	0.03870000
1.162000	0.04005000
1.162200	0.04137000
1.162400	0.04279000
1.162600	0.04424000
1.162800	0.04565000
1.163000	0.04706000
1.163200	0.04881000
1.163400	0.05051000
1.163600	0.05232000
1.163800	0.05423000
1.164000	0.05609000
1.164200	0.05801000
1.164400	0.06001000
1.164600	0.06219000
1.164800	0.06433000
1.165000	0.06674000
1.165200	0.06926000
1.165400	0.07190000
1.165600	0.07466000
1.165800	0.07751000
1.166000	0.08058000
1.166200	0.08372000
1.166400	0.08707000
1.166600	0.09062000
1.166800	0.09425000
1.167000	0.09811000
1.167200	0.10231000
1.167400	0.10674000
1.167600	0.11143000
1.167800	0.11630000
1.168000	0.12141000
1.168200	0.12679000
1.168400	0.13237000
1.168600	0.13828000
1.168800	0.14438000
1.169000	0.15079000
1.169200	0.15749000
1.169400	0.16461000
1.169600	0.17181000
1.169800	0.17929000
1.170000	0.18723000
1.170200	0.19537000
1.170400	0.20367000
1.170600	0.21233000
1.170800	0.22115000
1.171000	0.23035000
1.171200	0.23972000
1.171400	0.24933000
1.171600	0.25923000
1.171800	0.26930000
1.172000	0.27963000
1.172200	0.29022000
1.172400	0.30092000
1.172600	0.31180000
1.172800	0.32285000
1.173000	0.33412000
1.173200	0.34541000
1.173400	0.35681000
1.173600	0.36830000
1.173800	0.37988000
1.174000	0.39159000
1.174200	0.40326000
1.174400	0.41502000
1.174600	0.42676000
1.174800	0.43845000
1.175000	0.45006000
1.175200	0.46165000
1.175400	0.47321000
1.175600	0.48459000
1.175800	0.49586000
1.176000	0.50706000
1.176200	0.51801000
1.176400	0.52879000
1.176600	0.53943000
1.176800	0.54987000
1.177000	0.56003000
1.177200	0.57011000
1.177400	0.57985000
1.177600	0.58943000
1.177800	0.59883000
1.178000	0.60796000
1.178200	0.61685000
1.178400	0.62541000
1.178600	0.63361000
1.178800	0.64177000
1.179000	0.64958000
1.179200	0.65709000
1.179400	0.66431000
1.179600	0.67131000
1.179800	0.67818000
1.180000	0.68481000
1.180200	0.69125000
1.180400	0.69734000
1.180600	0.70319000
1.180800	0.70877000
1.181000	0.71405000
1.181200	0.71919000
1.181400	0.72408000
1.181600	0.72885000
1.181800	0.73351000
1.182000	0.73778000
1.182200	0.74187000
1.182400	0.74582000
1.182600	0.74969000
1.182800	0.75331000
1.183000	0.75668000
1.183200	0.75993000
1.183400	0.76295000
1.183600	0.76576000
1.183800	0.76862000
1.184000	0.77126000
1.184200	0.77380000
1.184400	0.77615000
1.184600	0.77838000
1.184800	0.78043000
1.185000	0.78241000
1.185200	0.78435000
1.185400	0.78622000
1.185600	0.78784000
1.185800	0.78938000
1.186000	0.79082000
1.186200	0.79218000
1.186400	0.79350000
1.186600	0.79472000
1.186800	0.79585000
1.187000	0.79683000
1.187200	0.79770000
1.187400	0.79839000
1.187600	0.79906000
1.187800	0.79967000
1.188000	0.80020000
1.188200	0.80054000
1.188400	0.80087000
1.188600	0.80096000
1.188800	0.80106000
1.189000	0.80107000
1.189200	0.80109000
1.189400	0.80092000
1.189600	0.80074000
1.189800	0.80046000
1.190000	0.80011000
1.190200	0.79987000
1.190400	0.79951000
1.190600	0.79913000
1.190800	0.79880000
1.191000	0.79836000
1.191200	0.79784000
1.191400	0.79738000
1.191600	0.79689000
1.191800	0.79648000
1.192000	0.79614000
1.192200	0.79572000
1.192400	0.79541000
1.192600	0.79524000
1.192800	0.79483000
1.193000	0.79459000
1.193200	0.79451000
1.193400	0.79434000
1.193600	0.79427000
1.193800	0.79428000
1.194000	0.79420000
1.194200	0.79431000
1.194400	0.79456000
1.194600	0.79480000
1.194800	0.79514000
1.195000	0.79539000
1.195200	0.79578000
1.195400	0.79626000
1.195600	0.79674000
1.195800	0.79723000
1.196000	0.79790000
1.196200	0.79861000
1.196400	0.79935000
1.196600	0.80000000
1.196800	0.80064000
1.197000	0.80151000
1.197200	0.80235000
1.197400	0.80325000
1.197600	0.80418000
1.197800	0.80513000
1.198000	0.80605000
1.198200	0.80721000
1.198400	0.80820000
1.198600	0.80917000
1.198800	0.81020000
1.199000	0.81117000
1.199200	0.81212000
1.199400	0.81311000
1.199600	0.81392000
1.199800	0.81480000
1.200000	0.81578000
1.200200	0.81654000
1.200400	0.81744000
1.200600	0.81816000
1.200800	0.81880000
1.201000	0.81943000
1.201200	0.81998000
1.201400	0.82048000
1.201600	0.82095000
1.201800	0.82137000
1.202000	0.82156000
1.202200	0.82179000
1.202400	0.82205000
1.202600	0.82210000
1.202800	0.82224000
1.203000	0.82236000
1.203200	0.82243000
1.203400	0.82231000
1.203600	0.82225000
1.203800	0.82204000
1.204000	0.82181000
1.204200	0.82152000
1.204400	0.82126000
1.204600	0.82085000
1.204800	0.82048000
1.205000	0.82005000
1.205200	0.81975000
1.205400	0.81927000
1.205600	0.81891000
1.205800	0.81845000
1.206000	0.81798000
1.206200	0.81747000
1.206400	0.81693000
1.206600	0.81654000
1.206800	0.81598000
1.207000	0.81544000
1.207200	0.81493000
1.207400	0.81445000
1.207600	0.81395000
1.207800	0.81346000
1.208000	0.81299000
1.208200	0.81256000
1.208400	0.81213000
1.208600	0.81169000
1.208800	0.81117000
1.209000	0.81076000
1.209200	0.81041000
1.209400	0.80998000
1.209600	0.80963000
1.209800	0.80917000
1.210000	0.80882000
1.210200	0.80853000
1.210400	0.80836000
1.210600	0.80811000
1.210800	0.80789000
1.211000	0.80775000
1.211200	0.80765000
1.211400	0.80756000
1.211600	0.80743000
1.211800	0.80750000
1.212000	0.80751000
1.212200	0.80750000
1.212400	0.80750000
1.212600	0.80763000
1.212800	0.80774000
1.213000	0.80789000
1.213200	0.80807000
1.213400	0.80830000
1.213600	0.80855000
1.213800	0.80882000
1.214000	0.80910000
1.214200	0.80939000
1.214400	0.80966000
1.214600	0.81001000
1.214800	0.81038000
1.215000	0.81076000
1.215200	0.81113000
1.215400	0.81165000
1.215600	0.81213000
1.215800	0.81256000
1.216000	0.81306000
1.216200	0.81360000
1.216400	0.81412000
1.216600	0.81471000
1.216800	0.81519000
1.217000	0.81564000
1.217200	0.81613000
1.217400	0.81667000
1.217600	0.81726000
1.217800	0.81778000
1.218000	0.81830000
1.218200	0.81883000
1.218400	0.81938000
1.218600	0.81992000
1.218800	0.82037000
1.219000	0.82097000
1.219200	0.82156000
1.219400	0.82204000
1.219600	0.82260000
1.219800	0.82304000
1.220000	0.82353000
1.220200	0.82407000
1.220400	0.82471000
1.220600	0.82527000
1.220800	0.82573000
1.221000	0.82629000
1.221200	0.82675000
1.221400	0.82715000
1.221600	0.82764000
1.221800	0.82802000
1.222000	0.82852000
1.222200	0.82893000
1.222400	0.82930000
1.222600	0.82977000
1.222800	0.83012000
1.223000	0.83067000
1.223200	0.83116000
1.223400	0.83167000
1.223600	0.83205000
1.223800	0.83237000
1.224000	0.83284000
1.224200	0.83318000
1.224400	0.83368000
1.224600	0.83414000
1.224800	0.83458000
1.225000	0.83498000
1.225200	0.83540000
1.225400	0.83582000
1.225600	0.83623000
1.225800	0.83675000
1.226000	0.83717000
1.226200	0.83754000
1.226400	0.83794000
1.226600	0.83824000
1.226800	0.83861000
1.227000	0.83900000
1.227200	0.83929000
1.227400	0.83965000
1.227600	0.83997000
1.227800	0.84033000
1.228000	0.84067000
1.228200	0.84103000
1.228400	0.84140000
1.228600	0.84174000
1.228800	0.84203000
1.229000	0.84225000
1.229200	0.84261000
1.229400	0.84283000
1.229600	0.84308000
1.229800	0.84346000
1.230000	0.84373000
1.230200	0.84404000
1.230400	0.84438000
1.230600	0.84473000
1.230800	0.84502000
1.231000	0.84531000
1.231200	0.84560000
1.231400	0.84589000
1.231600	0.84618000
1.231800	0.84641000
1.232000	0.84669000
1.232200	0.84697000
1.232400	0.84724000
1.232600	0.84758000
1.232800	0.84795000
1.233000	0.84814000
1.233200	0.84848000
1.233400	0.84882000
1.233600	0.84920000
1.233800	0.84952000
1.234000	0.84982000
1.234200	0.85010000
1.234400	0.85043000
1.234600	0.85071000
1.234800	0.85100000
1.235000	0.85138000
1.235200	0.85167000
1.235400	0.85190000
1.235600	0.85208000
1.235800	0.85237000
1.236000	0.85266000
1.236200	0.85292000
1.236400	0.85310000
1.236600	0.85330000
1.236800	0.85342000
1.237000	0.85356000
1.237200	0.85376000
1.237400	0.85397000
1.237600	0.85403000
1.237800	0.85422000
1.238000	0.85431000
1.238200	0.85434000
1.238400	0.85446000
1.238600	0.85449000
1.238800	0.85457000
1.239000	0.85464000
1.239200	0.85460000
1.239400	0.85458000
1.239600	0.85458000
1.239800	0.85455000
1.240000	0.85449000
1.240200	0.85443000
1.240400	0.85440000
1.240600	0.85431000
1.240800	0.85437000
1.241000	0.85432000
1.241200	0.85426000
1.241400	0.85426000
1.241600	0.85425000
1.241800	0.85432000
1.242000	0.85434000
1.242200	0.85428000
1.242400	0.85425000
1.242600	0.85432000
1.242800	0.85429000
1.243000	0.85425000
1.243200	0.85426000
1.243400	0.85423000
1.243600	0.85413000
1.243800	0.85408000
1.244000	0.85397000
1.244200	0.85388000
1.244400	0.85382000
1.244600	0.85367000
1.244800	0.85350000
1.245000	0.85336000
1.245200	0.85318000
1.245400	0.85294000
1.245600	0.85281000
1.245800	0.85255000
1.246000	0.85231000
1.246200	0.85213000
1.246400	0.85193000
1.246600	0.85176000
1.246800	0.85159000
1.247000	0.85135000
1.247200	0.85120000
1.247400	0.85109000
1.247600	0.85089000
1.247800	0.85077000
1.248000	0.85059000
1.248200	0.85031000
1.248400	0.85016000
1.248600	0.84999000
1.248800	0.84975000
1.249000	0.84964000
1.249200	0.84959000
1.249400	0.84933000
1.249600	0.84918000
1.249800	0.84908000
1.250000	0.84888000
1.250200	0.84880000
1.250400	0.84869000
1.250600	0.84863000
1.250800	0.84862000
1.251000	0.84857000
1.251200	0.84865000
1.251400	0.84871000
1.251600	0.84871000
1.251800	0.84871000
1.252000	0.84875000
1.252200	0.84874000
1.252400	0.84875000
1.252600	0.84872000
1.252800	0.84877000
1.253000	0.84872000
1.253200	0.84883000
1.253400	0.84885000
1.253600	0.84877000
1.253800	0.84863000
1.254000	0.84862000
1.254200	0.84865000
1.254400	0.84853000
1.254600	0.84850000
1.254800	0.84853000
1.255000	0.84862000
1.255200	0.84865000
1.255400	0.84877000
1.255600	0.84898000
1.255800	0.84917000
1.256000	0.84932000
1.256200	0.84949000
1.256400	0.84970000
1.256600	0.84990000
1.256800	0.85001000
1.257000	0.85031000
1.257200	0.85052000
1.257400	0.85072000
1.257600	0.85100000
1.257800	0.85115000
1.258000	0.85136000
1.258200	0.85161000
1.258400	0.85185000
1.258600	0.85213000
1.258800	0.85220000
1.259000	0.85251000
1.259200	0.85274000
1.259400	0.85306000
1.259600	0.85323000
1.259800	0.85358000
1.260000	0.85405000
1.260200	0.85431000
1.260400	0.85460000
1.260600	0.85474000
1.260800	0.85501000
1.261000	0.85547000
1.261200	0.85588000
1.261400	0.85635000
1.261600	0.85675000
1.261800	0.85710000
1.262000	0.85747000
1.262200	0.85782000
1.262400	0.85817000
1.262600	0.85846000
1.262800	0.85875000
1.263000	0.85904000
1.263200	0.85933000
1.263400	0.85960000
1.263600	0.85997000
1.263800	0.86035000
1.264000	0.86067000
1.264200	0.86090000
1.264400	0.86115000
1.264600	0.86131000
1.264800	0.86148000
1.265000	0.86150000
1.265200	0.86176000
1.265400	0.86186000
1.265600	0.86206000
1.265800	0.86220000
1.266000	0.86244000
1.266200	0.86253000
1.266400	0.86253000
1.266600	0.86255000
1.266800	0.86256000
1.267000	0.86259000
1.267200	0.86258000
1.267400	0.86258000
1.267600	0.86246000
1.267800	0.86235000
1.268000	0.86232000
1.268200	0.86232000
1.268400	0.86220000
1.268600	0.86214000
1.268800	0.86200000
1.269000	0.86182000
1.269200	0.86162000
1.269400	0.86143000
1.269600	0.86142000
1.269800	0.86134000
1.270000	0.86119000
1.270200	0.86096000
1.270400	0.86076000
1.270600	0.86055000
1.270800	0.86028000
1.271000	0.86003000
1.271200	0.85977000
1.271400	0.85944000
1.271600	0.85910000
1.271800	0.85878000
1.272000	0.85846000
1.272200	0.85820000
1.272400	0.85776000
1.272600	0.85741000
1.272800	0.85699000
1.273000	0.85672000
1.273200	0.85638000
1.273400	0.85606000
1.273600	0.85573000
1.273800	0.85542000
1.274000	0.85516000
1.274200	0.85490000
1.274400	0.85454000
1.274600	0.85439000
1.274800	0.85413000
1.275000	0.85388000
1.275200	0.85355000
1.275400	0.85320000
1.275600	0.85307000
1.275800	0.85280000
1.276000	0.85248000
1.276200	0.85211000
1.276400	0.85172000
1.276600	0.85138000
1.276800	0.85106000
1.277000	0.85068000
1.277200	0.85031000
1.277400	0.85008000
1.277600	0.84987000
1.277800	0.84949000
1.278000	0.84921000
1.278200	0.84898000
1.278400	0.84888000
1.278600	0.84877000
1.278800	0.84865000
1.279000	0.84854000
1.279200	0.84845000
1.279400	0.84842000
1.279600	0.84845000
1.279800	0.84843000
1.280000	0.84846000
1.280200	0.84850000
1.280400	0.84856000
1.280600	0.84846000
1.280800	0.84851000
1.281000	0.84859000
1.281200	0.84866000
1.281400	0.84866000
1.281600	0.84874000
1.281800	0.84880000
1.282000	0.84885000
1.282200	0.84891000
1.282400	0.84894000
1.282600	0.84885000
1.282800	0.84883000
1.283000	0.84885000
1.283200	0.84880000
1.283400	0.84880000
1.283600	0.84880000
1.283800	0.84883000
1.284000	0.84877000
1.284200	0.84879000
1.284400	0.84875000
1.284600	0.84872000
1.284800	0.84863000
1.285000	0.84859000
1.285200	0.84854000
1.285400	0.84853000
1.285600	0.84854000
1.285800	0.84860000
1.286000	0.84856000
1.286200	0.84856000
1.286400	0.84856000
1.286600	0.84851000
1.286800	0.84851000
1.287000	0.84854000
1.287200	0.84846000
1.287400	0.84845000
1.287600	0.84842000
1.287800	0.84851000
1.288000	0.84830000
1.288200	0.84821000
1.288400	0.84802000
1.288600	0.84784000
1.288800	0.84763000
1.289000	0.84750000
1.289200	0.84731000
1.289400	0.84709000
1.289600	0.84695000
1.289800	0.84676000
1.290000	0.84650000
1.290200	0.84627000
1.290400	0.84604000
1.290600	0.84578000
1.290800	0.84546000
1.291000	0.84512000
1.291200	0.84499000
1.291400	0.84477000
1.291600	0.84450000
1.291800	0.84428000
1.292000	0.84410000
1.292200	0.84384000
1.292400	0.84364000
1.292600	0.84349000
1.292800	0.84314000
1.293000	0.84293000
1.293200	0.84274000
1.293400	0.84236000
1.293600	0.84206000
1.293800	0.84169000
1.294000	0.84148000
1.294200	0.84123000
1.294400	0.84093000
1.294600	0.84047000
1.294800	0.84012000
1.295000	0.83978000
1.295200	0.83937000
1.295400	0.83897000
1.295600	0.83861000
1.295800	0.83813000
1.296000	0.83786000
1.296200	0.83745000
1.296400	0.83713000
1.296600	0.83685000
1.296800	0.83659000
1.297000	0.83633000
1.297200	0.83607000
1.297400	0.83577000
1.297600	0.83548000
1.297800	0.83530000
1.298000	0.83510000
1.298200	0.83482000
1.298400	0.83470000
1.298600	0.83441000
1.298800	0.83423000
1.299000	0.83403000
1.299200	0.83377000
1.299400	0.83353000
1.299600	0.83328000
1.299800	0.83307000
1.300000	0.83279000
1.300200	0.83258000
1.300400	0.83228000
1.300600	0.83194000
1.300800	0.83163000
1.301000	0.83141000
1.301200	0.83115000
1.301400	0.83093000
1.301600	0.83057000
1.301800	0.83035000
1.302000	0.83006000
1.302200	0.82971000
1.302400	0.82944000
1.302600	0.82921000
1.302800	0.82887000
1.303000	0.82848000
1.303200	0.82819000
1.303400	0.82780000
1.303600	0.82755000
1.303800	0.82722000
1.304000	0.82698000
1.304200	0.82658000
1.304400	0.82631000
1.304600	0.82591000
1.304800	0.82565000
1.305000	0.82544000
1.305200	0.82520000
1.305400	0.82510000
1.305600	0.82494000
1.305800	0.82468000
1.306000	0.82445000
1.306200	0.82434000
1.306400	0.82411000
1.306600	0.82397000
1.306800	0.82384000
1.307000	0.82359000
1.307200	0.82346000
1.307400	0.82333000
1.307600	0.82309000
1.307800	0.82294000
1.308000	0.82274000
1.308200	0.82249000
1.308400	0.82228000
1.308600	0.82210000
1.308800	0.82182000
1.309000	0.82169000
1.309200	0.82152000
1.309400	0.82126000
1.309600	0.82106000
1.309800	0.82092000
1.310000	0.82071000
1.310200	0.82069000
1.310400	0.82057000
1.310600	0.82047000
1.310800	0.82053000
1.311000	0.82059000
1.311200	0.82059000
1.311400	0.82060000
1.311600	0.82057000
1.311800	0.82057000
1.312000	0.82062000
1.312200	0.82062000
1.312400	0.82069000
1.312600	0.82077000
1.312800	0.82092000
1.313000	0.82106000
1.313200	0.82120000
1.313400	0.82127000
1.313600	0.82140000
1.313800	0.82144000
1.314000	0.82146000
1.314200	0.82146000
1.314400	0.82149000
1.314600	0.82155000
1.314800	0.82158000
1.315000	0.82159000
1.315200	0.82172000
1.315400	0.82176000
1.315600	0.82179000
1.315800	0.82182000
1.316000	0.82190000
1.316200	0.82179000
1.316400	0.82184000
1.316600	0.82191000
1.316800	0.82187000
1.317000	0.82207000
1.317200	0.82202000
1.317400	0.82196000
1.317600	0.82188000
1.317800	0.82179000
1.318000	0.82170000
1.318200	0.82149000
1.318400	0.82118000
1.318600	0.82088000
1.318800	0.82059000
1.319000	0.82024000
1.319200	0.81969000
1.319400	0.81924000
1.319600	0.81856000
1.319800	0.81790000
1.320000	0.81718000
1.320200	0.81622000
1.320400	0.81523000
1.320600	0.81406000
1.320800	0.81288000
1.321000	0.81148000
1.321200	0.81004000
1.321400	0.80855000
1.321600	0.80688000
1.321800	0.80518000
1.322000	0.80318000
1.322200	0.80110000
1.322400	0.79883000
1.322600	0.79643000
1.322800	0.79393000
1.323000	0.79126000
1.323200	0.78848000
1.323400	0.78545000
1.323600	0.78232000
1.323800	0.77916000
1.324000	0.77571000
1.324200	0.77228000
1.324400	0.76857000
1.324600	0.76468000
1.324800	0.76059000
1.325000	0.75638000
1.325200	0.75200000
1.325400	0.74751000
1.325600	0.74277000
1.325800	0.73779000
1.326000	0.73259000
1.326200	0.72733000
1.326400	0.72182000
1.326600	0.71609000
1.326800	0.71034000
1.327000	0.70432000
1.327200	0.69807000
1.327400	0.69156000
1.327600	0.68498000
1.327800	0.67821000
1.328000	0.67125000
1.328200	0.66415000
1.328400	0.65680000
1.328600	0.64934000
1.328800	0.64182000
1.329000	0.63405000
1.329200	0.62616000
1.329400	0.61797000
1.329600	0.60968000
1.329800	0.60138000
1.330000	0.59273000
1.330200	0.58398000
1.330400	0.57527000
1.330600	0.56628000
1.330800	0.55727000
1.331000	0.54817000
1.331200	0.53900000
1.331400	0.52956000
1.331600	0.52019000
1.331800	0.51059000
1.332000	0.50090000
1.332200	0.49129000
1.332400	0.48161000
1.332600	0.47189000
1.332800	0.46216000
1.333000	0.45224000
1.333200	0.44255000
1.333400	0.43280000
1.333600	0.42288000
1.333800	0.41315000
1.334000	0.40331000
1.334200	0.39362000
1.334400	0.38387000
1.334600	0.37433000
1.334800	0.36467000
1.335000	0.35519000
1.335200	0.34584000
1.335400	0.33646000
1.335600	0.32713000
1.335800	0.31784000
1.336000	0.30861000
1.336200	0.29967000
1.336400	0.29057000
1.336600	0.28165000
1.336800	0.27301000
1.337000	0.26445000
1.337200	0.25612000
1.337400	0.24753000
1.337600	0.23926000
1.337800	0.23117000
1.338000	0.22343000
1.338200	0.21567000
1.338400	0.20818000
1.338600	0.20078000
1.338800	0.19360000
1.339000	0.18671000
1.339200	0.17989000
1.339400	0.17332000
1.339600	0.16698000
1.339800	0.16084000
1.340000	0.15472000
1.340200	0.14885000
1.340400	0.14317000
1.340600	0.13766000
1.340800	0.13245000
1.341000	0.12721000
1.341200	0.12207000
1.341400	0.11725000
1.341600	0.11247000
1.341800	0.10802000
1.342000	0.10358000
1.342200	0.09935000
1.342400	0.09535000
1.342600	0.09140000
1.342800	0.08760000
1.343000	0.08397000
1.343200	0.08054000
1.343400	0.07715000
1.343600	0.07385000
1.343800	0.07092000
1.344000	0.06793000
1.344200	0.06516000
1.344400	0.06255000
1.344600	0.05992000
1.344800	0.05750000
1.345000	0.05505000
1.345200	0.05289000
1.345400	0.05063000
1.345600	0.04849000
1.345800	0.04649000
1.346000	0.04460000
1.346200	0.04276000
1.346400	0.04097000
1.346600	0.03941000
1.346800	0.03777000
1.347000	0.03616000
1.347200	0.03470000
1.347400	0.03328000
1.347600	0.03197000
1.347800	0.03073000
1.348000	0.02950000
1.348200	0.02837000
1.348400	0.02721000
1.348600	0.02618000
1.348800	0.02521000
1.349000	0.02429000
1.349200	0.02335000
1.349400	0.02245000
1.349600	0.02155000
1.349800	0.02071000
1.350000	0.01996000
1.350200	0.01926000
1.350400	0.01862000
1.350600	0.01791000
1.350800	0.01718000
1.351000	0.01648000
1.351200	0.01579000
1.351400	0.01523000
1.351600	0.01471000
1.351800	0.01422000
1.352000	0.01358000
1.352200	0.01297000
1.352400	0.01256000
1.352600	0.01208000
1.352800	0.01167000
1.353000	0.01122000
1.353200	0.01074000
1.353400	0.01031000
1.353600	0.00989000
1.353800	0.00955000
1.354000	0.00917000
1.354200	0.00896000
1.354400	0.00867000
1.354600	0.00827000
1.354800	0.00797000
1.355000	0.00769000
1.355200	0.00754000
1.355400	0.00737000
1.355600	0.00711000
1.355800	0.00700000
1.356000	0.00685000
1.356200	0.00662000
1.356400	0.00653000
1.356600	0.00626000
1.356800	0.00601000
1.357000	0.00580000
1.357200	0.00566000
1.357400	0.00546000
1.357600	0.00539000
1.357800	0.00525000
1.358000	0.00511000
1.358200	0.00479000
1.358400	0.00450000
1.358600	0.00432000
1.358800	0.00412000
1.359000	0.00385000
1.359200	0.00365000
1.359400	0.00351000
1.359600	0.00340000
1.359800	0.00333000
1.360000	0.00325000
1.360200	0.00320000
1.360400	0.00313000
1.360600	0.00291000
1.360800	0.00288000
1.361000	0.00278000
1.361200	0.00258000
1.361400	0.00252000
1.361600	0.00258000
1.361800	0.00238000
1.362000	0.00230000
1.362200	0.00223000
