# lambda (micron)    fractional filter transmission phi(lambda)
1.952500	0.00398000
1.953000	0.00438000
1.953500	0.00418000
1.954000	0.00539000
1.954500	0.00598000
1.955000	0.00658000
1.955500	0.00595000
1.956000	0.00754000
1.956500	0.00731000
1.957000	0.00829000
1.957500	0.00906000
1.958000	0.01042000
1.958500	0.01176000
1.959000	0.01387000
1.959500	0.01561000
1.960000	0.01578000
1.960500	0.01714000
1.961000	0.01770000
1.961500	0.01942000
1.962000	0.02057000
1.962500	0.02283000
1.963000	0.02376000
1.963500	0.02431000
1.964000	0.02641000
1.964500	0.02940000
1.965000	0.03188000
1.965500	0.03513000
1.966000	0.03841000
1.966500	0.04109000
1.967000	0.04437000
1.967500	0.04858000
1.968000	0.05138000
1.968500	0.05484000
1.969000	0.05833000
1.969500	0.06160000
1.970000	0.06641000
1.970500	0.07022000
1.971000	0.07552000
1.971500	0.08191000
1.972000	0.08948000
1.972500	0.09470000
1.973000	0.10268000
1.973500	0.11011000
1.974000	0.11623000
1.974500	0.12466000
1.975000	0.13254000
1.975500	0.14134000
1.976000	0.15041000
1.976500	0.16124000
1.977000	0.17024000
1.977500	0.18124000
1.978000	0.19298000
1.978500	0.20563000
1.979000	0.21848000
1.979500	0.23201000
1.980000	0.24522000
1.980500	0.25993000
1.981000	0.27560000
1.981500	0.29164000
1.982000	0.30975000
1.982500	0.32809000
1.983000	0.34734000
1.983500	0.36688000
1.984000	0.38693000
1.984500	0.40785000
1.985000	0.42859000
1.985500	0.45116000
1.986000	0.47171000
1.986500	0.49217000
1.987000	0.51314000
1.987500	0.53391000
1.988000	0.55516000
1.988500	0.57697000
1.989000	0.60068000
1.989500	0.62231000
1.990000	0.64407000
1.990500	0.66554000
1.991000	0.68594000
1.991500	0.70721000
1.992000	0.72710000
1.992500	0.74504000
1.993000	0.76048000
1.993500	0.77513000
1.994000	0.79004000
1.994500	0.80415000
1.995000	0.81711000
1.995500	0.82915000
1.996000	0.84143000
1.996500	0.85373000
1.997000	0.86440000
1.997500	0.87405000
1.998000	0.88304000
1.998500	0.89075000
1.999000	0.89919000
1.999500	0.90440000
2.000000	0.90967000
2.000500	0.91188000
2.001000	0.91666000
2.001500	0.92082000
2.002000	0.92412000
2.002500	0.92625000
2.003000	0.92831000
2.003500	0.93076000
2.004000	0.93251000
2.004500	0.93504000
2.005000	0.93596000
2.005500	0.93724000
2.006000	0.94005000
2.006500	0.94374000
2.007000	0.94580000
2.007500	0.94778000
2.008000	0.94962000
2.008500	0.95065000
2.009000	0.95277000
2.009500	0.95343000
2.010000	0.95341000
2.010500	0.95186000
2.011000	0.95288000
2.011500	0.95451000
2.012000	0.95567000
2.012500	0.95743000
2.013000	0.95912000
2.013500	0.96199000
2.014000	0.96356000
2.014500	0.96637000
2.015000	0.96844000
2.015500	0.96974000
2.016000	0.97081000
2.016500	0.97134000
2.017000	0.97110000
2.017500	0.97029000
2.018000	0.97119000
2.018500	0.97116000
2.019000	0.97064000
2.019500	0.97020000
2.020000	0.97121000
2.020500	0.97093000
2.021000	0.97212000
2.021500	0.97327000
2.022000	0.97171000
2.022500	0.97087000
2.023000	0.96954000
2.023500	0.96814000
2.024000	0.96402000
2.024500	0.96315000
2.025000	0.96193000
2.025500	0.95975000
2.026000	0.95950000
2.026500	0.95885000
2.027000	0.95857000
2.027500	0.95900000
2.028000	0.96091000
2.028500	0.96243000
2.029000	0.96196000
2.029500	0.96303000
2.030000	0.96184000
2.030500	0.96140000
2.031000	0.95940000
2.031500	0.95866000
2.032000	0.95808000
2.032500	0.95671000
2.033000	0.95471000
2.033500	0.95296000
2.034000	0.95323000
2.034500	0.95267000
2.035000	0.95348000
2.035500	0.95375000
2.036000	0.95241000
2.036500	0.95099000
2.037000	0.95035000
2.037500	0.95030000
2.038000	0.94958000
2.038500	0.94962000
2.039000	0.94896000
2.039500	0.94725000
2.040000	0.94615000
2.040500	0.94667000
2.041000	0.94818000
2.041500	0.94902000
2.042000	0.94997000
2.042500	0.94992000
2.043000	0.94885000
2.043500	0.94894000
2.044000	0.95076000
2.044500	0.95090000
2.045000	0.95001000
2.045500	0.94873000
2.046000	0.94640000
2.046500	0.94467000
2.047000	0.94440000
2.047500	0.94370000
2.048000	0.94354000
2.048500	0.94101000
2.049000	0.94002000
2.049500	0.93973000
2.050000	0.93883000
2.050500	0.93901000
2.051000	0.93964000
2.051500	0.94061000
2.052000	0.93848000
2.052500	0.94075000
2.053000	0.94142000
2.053500	0.94257000
2.054000	0.94461000
2.054500	0.94748000
2.055000	0.94810000
2.055500	0.94766000
2.056000	0.94943000
2.056500	0.94948000
2.057000	0.94952000
2.057500	0.94830000
2.058000	0.94756000
2.058500	0.94577000
2.059000	0.94600000
2.059500	0.94678000
2.060000	0.94630000
2.060500	0.94678000
2.061000	0.94759000
2.061500	0.94870000
2.062000	0.95079000
2.062500	0.94995000
2.063000	0.94984000
2.063500	0.94821000
2.064000	0.94856000
2.064500	0.94846000
2.065000	0.94838000
2.065500	0.94836000
2.066000	0.94807000
2.066500	0.94926000
2.067000	0.94978000
2.067500	0.95235000
2.068000	0.95477000
2.068500	0.95535000
2.069000	0.95656000
2.069500	0.95749000
2.070000	0.95821000
2.070500	0.95970000
2.071000	0.96075000
2.071500	0.96106000
2.072000	0.95956000
2.072500	0.95956000
2.073000	0.95956000
2.073500	0.95999000
2.074000	0.96068000
2.074500	0.96281000
2.075000	0.96254000
2.075500	0.96365000
2.076000	0.96550000
2.076500	0.96765000
2.077000	0.96857000
2.077500	0.97006000
2.078000	0.97086000
2.078500	0.97009000
2.079000	0.97084000
2.079500	0.97133000
2.080000	0.97156000
2.080500	0.97139000
2.081000	0.97298000
2.081500	0.97267000
2.082000	0.97328000
2.082500	0.97336000
2.083000	0.97438000
2.083500	0.97496000
2.084000	0.97672000
2.084500	0.97729000
2.085000	0.97739000
2.085500	0.98009000
2.086000	0.98053000
2.086500	0.98190000
2.087000	0.98402000
2.087500	0.98482000
2.088000	0.98454000
2.088500	0.98521000
2.089000	0.98549000
2.089500	0.98384000
2.090000	0.98421000
2.090500	0.98274000
2.091000	0.97961000
2.091500	0.97736000
2.092000	0.97566000
2.092500	0.97414000
2.093000	0.97301000
2.093500	0.97330000
2.094000	0.97263000
2.094500	0.97499000
2.095000	0.97713000
2.095500	0.97794000
2.096000	0.97920000
2.096500	0.98053000
2.097000	0.97932000
2.097500	0.97980000
2.098000	0.97946000
2.098500	0.97871000
2.099000	0.97655000
2.099500	0.97675000
2.100000	0.97627000
2.100500	0.97664000
2.101000	0.97928000
2.101500	0.97736000
2.102000	0.97864000
2.102500	0.97626000
2.103000	0.97733000
2.103500	0.97620000
2.104000	0.97482000
2.104500	0.97418000
2.105000	0.97264000
2.105500	0.97389000
2.106000	0.97192000
2.106500	0.97354000
2.107000	0.97406000
2.107500	0.97476000
2.108000	0.97437000
2.108500	0.97324000
2.109000	0.97223000
2.109500	0.97072000
2.110000	0.97083000
2.110500	0.97026000
2.111000	0.96909000
2.111500	0.96924000
2.112000	0.97044000
2.112500	0.97018000
2.113000	0.96863000
2.113500	0.96875000
2.114000	0.96831000
2.114500	0.96777000
2.115000	0.96765000
2.115500	0.96620000
2.116000	0.96585000
2.116500	0.96564000
2.117000	0.96695000
2.117500	0.96788000
2.118000	0.96751000
2.118500	0.96674000
2.119000	0.96771000
2.119500	0.96819000
2.120000	0.96873000
2.120500	0.96893000
2.121000	0.96928000
2.121500	0.96715000
2.122000	0.96883000
2.122500	0.96901000
2.123000	0.96777000
2.123500	0.96825000
2.124000	0.96704000
2.124500	0.96632000
2.125000	0.96643000
2.125500	0.96860000
2.126000	0.96783000
2.126500	0.96715000
2.127000	0.96831000
2.127500	0.96736000
2.128000	0.96828000
2.128500	0.96817000
2.129000	0.96860000
2.129500	0.96809000
2.130000	0.97003000
2.130500	0.97325000
2.131000	0.97444000
2.131500	0.97426000
2.132000	0.97481000
2.132500	0.97603000
2.133000	0.97681000
2.133500	0.97758000
2.134000	0.97705000
2.134500	0.97702000
2.135000	0.97597000
2.135500	0.97763000
2.136000	0.97777000
2.136500	0.97719000
2.137000	0.97859000
2.137500	0.97861000
2.138000	0.97813000
2.138500	0.97757000
2.139000	0.97882000
2.139500	0.97856000
2.140000	0.97804000
2.140500	0.97977000
2.141000	0.98030000
2.141500	0.97923000
2.142000	0.97842000
2.142500	0.97887000
2.143000	0.97733000
2.143500	0.97780000
2.144000	0.97789000
2.144500	0.97546000
2.145000	0.97263000
2.145500	0.97258000
2.146000	0.97366000
2.146500	0.97375000
2.147000	0.97411000
2.147500	0.97520000
2.148000	0.97639000
2.148500	0.98021000
2.149000	0.97983000
2.149500	0.97893000
2.150000	0.97646000
2.150500	0.97307000
2.151000	0.97319000
2.151500	0.97279000
2.152000	0.97295000
2.152500	0.97099000
2.153000	0.97079000
2.153500	0.97318000
2.154000	0.97302000
2.154500	0.97487000
2.155000	0.97507000
2.155500	0.97495000
2.156000	0.97395000
2.156500	0.97391000
2.157000	0.97511000
2.157500	0.97272000
2.158000	0.97610000
2.158500	0.97568000
2.159000	0.97597000
2.159500	0.97490000
2.160000	0.97195000
2.160500	0.97177000
2.161000	0.97041000
2.161500	0.97069000
2.162000	0.96767000
2.162500	0.96852000
2.163000	0.96724000
2.163500	0.96719000
2.164000	0.97098000
2.164500	0.97177000
2.165000	0.97401000
2.165500	0.97531000
2.166000	0.97693000
2.166500	0.97612000
2.167000	0.97749000
2.167500	0.97664000
2.168000	0.97505000
2.168500	0.97560000
2.169000	0.97543000
2.169500	0.97475000
2.170000	0.97409000
2.170500	0.97482000
2.171000	0.97180000
2.171500	0.97313000
2.172000	0.97400000
2.172500	0.97089000
2.173000	0.96724000
2.173500	0.96599000
2.174000	0.96707000
2.174500	0.96564000
2.175000	0.96516000
2.175500	0.96420000
2.176000	0.96437000
2.176500	0.96535000
2.177000	0.96663000
2.177500	0.96678000
2.178000	0.96417000
2.178500	0.96420000
2.179000	0.96384000
2.179500	0.96355000
2.180000	0.96022000
2.180500	0.95807000
2.181000	0.95639000
2.181500	0.95639000
2.182000	0.95593000
2.182500	0.95647000
2.183000	0.95834000
2.183500	0.95874000
2.184000	0.95732000
2.184500	0.95677000
2.185000	0.95827000
2.185500	0.95592000
2.186000	0.95648000
2.186500	0.95517000
2.187000	0.95380000
2.187500	0.95175000
2.188000	0.95264000
2.188500	0.95242000
2.189000	0.95033000
2.189500	0.95073000
2.190000	0.94810000
2.190500	0.94688000
2.191000	0.94566000
2.191500	0.94443000
2.192000	0.94402000
2.192500	0.94438000
2.193000	0.94308000
2.193500	0.94115000
2.194000	0.94168000
2.194500	0.94243000
2.195000	0.94231000
2.195500	0.94331000
2.196000	0.94099000
2.196500	0.94067000
2.197000	0.93903000
2.197500	0.93890000
2.198000	0.93715000
2.198500	0.93523000
2.199000	0.93517000
2.199500	0.93480000
2.200000	0.93721000
2.200500	0.93716000
2.201000	0.94012000
2.201500	0.94305000
2.202000	0.94354000
2.202500	0.94566000
2.203000	0.94606000
2.203500	0.94719000
2.204000	0.94745000
2.204500	0.94691000
2.205000	0.94551000
2.205500	0.94427000
2.206000	0.94730000
2.206500	0.94521000
2.207000	0.94566000
2.207500	0.94553000
2.208000	0.94696000
2.208500	0.94690000
2.209000	0.94913000
2.209500	0.95151000
2.210000	0.95030000
2.210500	0.95250000
2.211000	0.95175000
2.211500	0.95137000
2.212000	0.95203000
2.212500	0.95386000
2.213000	0.95427000
2.213500	0.95386000
2.214000	0.95450000
2.214500	0.95502000
2.215000	0.95515000
2.215500	0.95547000
2.216000	0.95587000
2.216500	0.95818000
2.217000	0.95912000
2.217500	0.95868000
2.218000	0.96033000
2.218500	0.95975000
2.219000	0.96126000
2.219500	0.96049000
2.220000	0.95909000
2.220500	0.95728000
2.221000	0.95700000
2.221500	0.95842000
2.222000	0.95811000
2.222500	0.95837000
2.223000	0.95905000
2.223500	0.96062000
2.224000	0.96179000
2.224500	0.96277000
2.225000	0.96361000
2.225500	0.96313000
2.226000	0.96269000
2.226500	0.96454000
2.227000	0.96701000
2.227500	0.96989000
2.228000	0.97141000
2.228500	0.97292000
2.229000	0.97429000
2.229500	0.97502000
2.230000	0.97678000
2.230500	0.97723000
2.231000	0.97519000
2.231500	0.97456000
2.232000	0.97382000
2.232500	0.97327000
2.233000	0.97119000
2.233500	0.97131000
2.234000	0.97034000
2.234500	0.96828000
2.235000	0.96863000
2.235500	0.96558000
2.236000	0.96492000
2.236500	0.96481000
2.237000	0.96671000
2.237500	0.96632000
2.238000	0.96965000
2.238500	0.97029000
2.239000	0.97017000
2.239500	0.96986000
2.240000	0.97031000
2.240500	0.96948000
2.241000	0.96869000
2.241500	0.96504000
2.242000	0.95995000
2.242500	0.96010000
2.243000	0.95956000
2.243500	0.96060000
2.244000	0.95921000
2.244500	0.95848000
2.245000	0.95755000
2.245500	0.95970000
2.246000	0.96080000
2.246500	0.96182000
2.247000	0.96266000
2.247500	0.96431000
2.248000	0.96550000
2.248500	0.96527000
2.249000	0.96519000
2.249500	0.96625000
2.250000	0.96642000
2.250500	0.96466000
2.251000	0.96407000
2.251500	0.96227000
2.252000	0.96063000
2.252500	0.96019000
2.253000	0.95982000
2.253500	0.95847000
2.254000	0.95604000
2.254500	0.95627000
2.255000	0.95599000
2.255500	0.95491000
2.256000	0.95355000
2.256500	0.95338000
2.257000	0.95427000
2.257500	0.95526000
2.258000	0.95842000
2.258500	0.95691000
2.259000	0.95567000
2.259500	0.95514000
2.260000	0.95552000
2.260500	0.95528000
2.261000	0.95511000
2.261500	0.95476000
2.262000	0.95389000
2.262500	0.95375000
2.263000	0.95332000
2.263500	0.95293000
2.264000	0.95360000
2.264500	0.95409000
2.265000	0.95277000
2.265500	0.95219000
2.266000	0.95016000
2.266500	0.95113000
2.267000	0.95312000
2.267500	0.95378000
2.268000	0.95561000
2.268500	0.95413000
2.269000	0.95349000
2.269500	0.95406000
2.270000	0.95560000
2.270500	0.95552000
2.271000	0.95404000
2.271500	0.95415000
2.272000	0.95380000
2.272500	0.95610000
2.273000	0.95802000
2.273500	0.95961000
2.274000	0.96141000
2.274500	0.96301000
2.275000	0.96559000
2.275500	0.96957000
2.276000	0.96950000
2.276500	0.97070000
2.277000	0.97095000
2.277500	0.97142000
2.278000	0.97145000
2.278500	0.97075000
2.279000	0.97037000
2.279500	0.96996000
2.280000	0.96991000
2.280500	0.96707000
2.281000	0.96626000
2.281500	0.96489000
2.282000	0.96361000
2.282500	0.96140000
2.283000	0.96022000
2.283500	0.95738000
2.284000	0.95534000
2.284500	0.95506000
2.285000	0.95305000
2.285500	0.95102000
2.286000	0.94936000
2.286500	0.94901000
2.287000	0.94539000
2.287500	0.94312000
2.288000	0.94165000
2.288500	0.93932000
2.289000	0.93730000
2.289500	0.93439000
2.290000	0.93420000
2.290500	0.93263000
2.291000	0.93146000
2.291500	0.93053000
2.292000	0.92856000
2.292500	0.92697000
2.293000	0.92514000
2.293500	0.92343000
2.294000	0.91939000
2.294500	0.91704000
2.295000	0.91588000
2.295500	0.91269000
2.296000	0.91066000
2.296500	0.90819000
2.297000	0.90556000
2.297500	0.90115000
2.298000	0.89661000
2.298500	0.89082000
2.299000	0.88664000
2.299500	0.88107000
2.300000	0.87706000
2.300500	0.87274000
2.301000	0.86671000
2.301500	0.86165000
2.302000	0.85619000
2.302500	0.84955000
2.303000	0.83998000
2.303500	0.82976000
2.304000	0.81816000
2.304500	0.80537000
2.305000	0.79390000
2.305500	0.78192000
2.306000	0.76883000
2.306500	0.75519000
2.307000	0.74139000
2.307500	0.72838000
2.308000	0.71246000
2.308500	0.69725000
2.309000	0.67978000
2.309500	0.66141000
2.310000	0.64282000
2.310500	0.62294000
2.311000	0.60126000
2.311500	0.58058000
2.312000	0.56117000
2.312500	0.53928000
2.313000	0.51758000
2.313500	0.49535000
2.314000	0.47357000
2.314500	0.45309000
2.315000	0.43427000
2.315500	0.41277000
2.316000	0.39009000
2.316500	0.37064000
2.317000	0.35262000
2.317500	0.33429000
2.318000	0.31548000
2.318500	0.29773000
2.319000	0.28032000
2.319500	0.26483000
2.320000	0.25021000
2.320500	0.23511000
2.321000	0.22063000
2.321500	0.20773000
2.322000	0.19514000
2.322500	0.18355000
2.323000	0.17233000
2.323500	0.16023000
2.324000	0.14983000
2.324500	0.14117000
2.325000	0.13164000
2.325500	0.12335000
2.326000	0.11586000
2.326500	0.10764000
2.327000	0.09991000
2.327500	0.09462000
2.328000	0.08842000
2.328500	0.08237000
2.329000	0.07616000
2.329500	0.07008000
2.330000	0.06541000
2.330500	0.06175000
2.331000	0.05786000
2.331500	0.05499000
2.332000	0.05103000
2.332500	0.04707000
2.333000	0.04555000
2.333500	0.04399000
2.334000	0.04019000
2.334500	0.03726000
2.335000	0.03427000
2.335500	0.03050000
2.336000	0.02942000
2.336500	0.02820000
2.337000	0.02464000
2.337500	0.02161000
2.338000	0.02054000
2.338500	0.01830000
2.339000	0.01779000
2.339500	0.01753000
2.340000	0.01534000
2.340500	0.01221000
2.341000	0.01196000
2.341500	0.01056000
2.342000	0.01097000
2.342500	0.01097000
2.343000	0.01015000
2.343500	0.00874000
2.344000	0.00879000
2.344500	0.00909000
2.345000	0.00911000
2.345500	0.00911000
2.346000	0.00677000
2.346500	0.00502000
2.347000	0.00414000
2.347500	0.00204000
